trial,condition,rt,accuracy,stim_path,stim_target
1,\incong-cong-ha,824,1,stimuli-ha-sa\\incong-cong-HA\\cong-ha-14.png,cong-ha-14
2,\incong-cong-sa,1787,1,stimuli-ha-sa\\incong-cong-SA\\cong-sa-31.png,cong-sa-31
3,\incong-cong-sa,1172,1,stimuli-ha-sa\\incong-cong-SA\\incong-sa-5.png,incong-sa-5
4,\incong-cong-sa,1099,1,stimuli-ha-sa\\incong-cong-SA\\cong-sa-25.png,cong-sa-25
5,\incong-cong-sa,1430,1,stimuli-ha-sa\\incong-cong-SA\\cong-sa-5.png,cong-sa-5
6,\incong-cong-ha,1175,1,stimuli-ha-sa\\incong-cong-HA\\cong-ha-31.png,cong-ha-31
7,\incong-cong-ha,986,1,stimuli-ha-sa\\incong-cong-HA\\cong-ha-36.png,cong-ha-36
8,\incong-cong-ha,859,1,stimuli-ha-sa\\incong-cong-HA\\cong-ha-41.png,cong-ha-41
9,\incong-cong-sa,936,1,stimuli-ha-sa\\incong-cong-SA\\cong-sa-1.png,cong-sa-1
10,\incong-cong-sa,2755,1,stimuli-ha-sa\\incong-cong-SA\\incong-sa-26.png,incong-sa-26
11,\incong-cong-ha,1128,1,stimuli-ha-sa\\incong-cong-HA\\incong-ha-39.png,incong-ha-39
12,\incong-cong-ha,1091,1,stimuli-ha-sa\\incong-cong-HA\\incong-ha-18.png,incong-ha-18
13,\incong-cong-ha,1486,1,stimuli-ha-sa\\incong-cong-HA\\incong-ha-3.png,incong-ha-3
14,\incong-cong-ha,893,1,stimuli-ha-sa\\incong-cong-HA\\cong-ha-6.png,cong-ha-6
15,\incong-cong-ha,1338,1,stimuli-ha-sa\\incong-cong-HA\\cong-ha-22.png,cong-ha-22
16,\incong-cong-ha,1489,1,stimuli-ha-sa\\incong-cong-HA\\incong-ha-21.png,incong-ha-21
17,\incong-cong-ha,1767,1,stimuli-ha-sa\\incong-cong-HA\\cong-ha-35.png,cong-ha-35
18,\incong-cong-sa,1926,1,stimuli-ha-sa\\incong-cong-SA\\incong-sa-22.png,incong-sa-22
19,\incong-cong-ha,1881,1,stimuli-ha-sa\\incong-cong-HA\\cong-ha-4.png,cong-ha-4
20,\incong-cong-sa,5276,1,stimuli-ha-sa\\incong-cong-SA\\cong-sa-30.png,cong-sa-30
21,\incong-cong-ha,3653,1,stimuli-ha-sa\\incong-cong-HA\\incong-ha-9.png,incong-ha-9
22,\incong-cong-sa,1262,1,stimuli-ha-sa\\incong-cong-SA\\incong-sa-46.png,incong-sa-46
23,\incong-cong-sa,885,1,stimuli-ha-sa\\incong-cong-SA\\incong-sa-14.png,incong-sa-14
24,\incong-cong-ha,1115,1,stimuli-ha-sa\\incong-cong-HA\\incong-ha-16.png,incong-ha-16
25,\incong-cong-ha,1227,1,stimuli-ha-sa\\incong-cong-HA\\cong-ha-30.png,cong-ha-30
26,\incong-cong-sa,998,1,stimuli-ha-sa\\incong-cong-SA\\incong-sa-32.png,incong-sa-32
27,\incong-cong-ha,817,1,stimuli-ha-sa\\incong-cong-HA\\cong-ha-9.png,cong-ha-9
28,\incong-cong-ha,2596,1,stimuli-ha-sa\\incong-cong-HA\\incong-ha-41.png,incong-ha-41
29,\incong-cong-ha,3033,1,stimuli-ha-sa\\incong-cong-HA\\incong-ha-19.png,incong-ha-19
30,\incong-cong-sa,2133,1,stimuli-ha-sa\\incong-cong-SA\\cong-sa-24.png,cong-sa-24
31,\incong-cong-ha,2184,1,stimuli-ha-sa\\incong-cong-HA\\cong-ha-11.png,cong-ha-11
32,\incong-cong-ha,5248,1,stimuli-ha-sa\\incong-cong-HA\\incong-ha-15.png,incong-ha-15
33,\incong-cong-sa,1006,1,stimuli-ha-sa\\incong-cong-SA\\cong-sa-39.png,cong-sa-39
34,\incong-cong-sa,1168,1,stimuli-ha-sa\\incong-cong-SA\\cong-sa-7.png,cong-sa-7
35,\incong-cong-sa,1459,1,stimuli-ha-sa\\incong-cong-SA\\cong-sa-13.png,cong-sa-13
36,\incong-cong-sa,918,1,stimuli-ha-sa\\incong-cong-SA\\incong-sa-38.png,incong-sa-38
37,\incong-cong-ha,2568,1,stimuli-ha-sa\\incong-cong-HA\\cong-ha-43.png,cong-ha-43
38,\incong-cong-sa,932,1,stimuli-ha-sa\\incong-cong-SA\\incong-sa-13.png,incong-sa-13
39,\incong-cong-sa,923,1,stimuli-ha-sa\\incong-cong-SA\\incong-sa-29.png,incong-sa-29
40,\incong-cong-sa,903,1,stimuli-ha-sa\\incong-cong-SA\\incong-sa-25.png,incong-sa-25
41,\incong-cong-sa,937,1,stimuli-ha-sa\\incong-cong-SA\\incong-sa-2.png,incong-sa-2
42,\incong-cong-ha,1665,1,stimuli-ha-sa\\incong-cong-HA\\incong-ha-14.png,incong-ha-14
43,\incong-cong-ha,1185,1,stimuli-ha-sa\\incong-cong-HA\\cong-ha-33.png,cong-ha-33
44,\incong-cong-sa,1102,1,stimuli-ha-sa\\incong-cong-SA\\cong-sa-2.png,cong-sa-2
45,\incong-cong-sa,875,1,stimuli-ha-sa\\incong-cong-SA\\incong-sa-10.png,incong-sa-10
46,\incong-cong-sa,1035,1,stimuli-ha-sa\\incong-cong-SA\\incong-sa-4.png,incong-sa-4
47,\incong-cong-sa,1067,1,stimuli-ha-sa\\incong-cong-SA\\cong-sa-34.png,cong-sa-34
48,\incong-cong-ha,1192,1,stimuli-ha-sa\\incong-cong-HA\\incong-ha-20.png,incong-ha-20
49,\incong-cong-sa,1034,1,stimuli-ha-sa\\incong-cong-SA\\incong-sa-20.png,incong-sa-20
50,\incong-cong-ha,1900,1,stimuli-ha-sa\\incong-cong-HA\\incong-ha-45.png,incong-ha-45
51,\incong-cong-ha,834,1,stimuli-ha-sa\\incong-cong-HA\\cong-ha-12.png,cong-ha-12
52,\incong-cong-ha,1367,1,stimuli-ha-sa\\incong-cong-HA\\incong-ha-33.png,incong-ha-33
53,\incong-cong-sa,931,1,stimuli-ha-sa\\incong-cong-SA\\incong-sa-30.png,incong-sa-30
54,\incong-cong-ha,1564,1,stimuli-ha-sa\\incong-cong-HA\\cong-ha-34.png,cong-ha-34
55,\incong-cong-sa,2025,1,stimuli-ha-sa\\incong-cong-SA\\cong-sa-43.png,cong-sa-43
56,\incong-cong-sa,1580,1,stimuli-ha-sa\\incong-cong-SA\\cong-sa-28.png,cong-sa-28
57,\incong-cong-sa,921,1,stimuli-ha-sa\\incong-cong-SA\\cong-sa-11.png,cong-sa-11
58,\incong-cong-sa,2299,1,stimuli-ha-sa\\incong-cong-SA\\incong-sa-27.png,incong-sa-27
59,\incong-cong-sa,2150,1,stimuli-ha-sa\\incong-cong-SA\\cong-sa-36.png,cong-sa-36
60,\incong-cong-sa,2279,1,stimuli-ha-sa\\incong-cong-SA\\cong-sa-4.png,cong-sa-4
61,\incong-cong-ha,958,1,stimuli-ha-sa\\incong-cong-HA\\cong-ha-50.png,cong-ha-50
62,\incong-cong-ha,922,1,stimuli-ha-sa\\incong-cong-HA\\cong-ha-5.png,cong-ha-5
63,\incong-cong-sa,817,1,stimuli-ha-sa\\incong-cong-SA\\cong-sa-16.png,cong-sa-16
64,\incong-cong-sa,1553,1,stimuli-ha-sa\\incong-cong-SA\\incong-sa-45.png,incong-sa-45
65,\incong-cong-sa,1217,1,stimuli-ha-sa\\incong-cong-SA\\cong-sa-17.png,cong-sa-17
66,\incong-cong-ha,941,1,stimuli-ha-sa\\incong-cong-HA\\incong-ha-11.png,incong-ha-11
67,\incong-cong-ha,952,1,stimuli-ha-sa\\incong-cong-HA\\cong-ha-47.png,cong-ha-47
68,\incong-cong-sa,2215,1,stimuli-ha-sa\\incong-cong-SA\\incong-sa-33.png,incong-sa-33
69,\incong-cong-sa,1063,1,stimuli-ha-sa\\incong-cong-SA\\incong-sa-34.png,incong-sa-34
70,\incong-cong-ha,907,1,stimuli-ha-sa\\incong-cong-HA\\incong-ha-1.png,incong-ha-1
71,\incong-cong-ha,1062,1,stimuli-ha-sa\\incong-cong-HA\\cong-ha-27.png,cong-ha-27
72,\incong-cong-ha,983,1,stimuli-ha-sa\\incong-cong-HA\\incong-ha-13.png,incong-ha-13
73,\incong-cong-sa,1224,1,stimuli-ha-sa\\incong-cong-SA\\cong-sa-26.png,cong-sa-26
74,\incong-cong-ha,1366,1,stimuli-ha-sa\\incong-cong-HA\\incong-ha-40.png,incong-ha-40
75,\incong-cong-ha,2559,1,stimuli-ha-sa\\incong-cong-HA\\incong-ha-38.png,incong-ha-38
76,\incong-cong-sa,1343,1,stimuli-ha-sa\\incong-cong-SA\\incong-sa-6.png,incong-sa-6
77,\incong-cong-ha,1376,1,stimuli-ha-sa\\incong-cong-HA\\cong-ha-21.png,cong-ha-21
78,\incong-cong-ha,1359,1,stimuli-ha-sa\\incong-cong-HA\\incong-ha-44.png,incong-ha-44
79,\incong-cong-ha,1392,1,stimuli-ha-sa\\incong-cong-HA\\incong-ha-17.png,incong-ha-17
80,\incong-cong-sa,1436,1,stimuli-ha-sa\\incong-cong-SA\\incong-sa-8.png,incong-sa-8
81,\incong-cong-ha,1389,1,stimuli-ha-sa\\incong-cong-HA\\incong-ha-53.png,incong-ha-53
82,\incong-cong-ha,1655,1,stimuli-ha-sa\\incong-cong-HA\\cong-ha-25.png,cong-ha-25
83,\incong-cong-ha,1352,1,stimuli-ha-sa\\incong-cong-HA\\incong-ha-22.png,incong-ha-22
84,\incong-cong-sa,1499,1,stimuli-ha-sa\\incong-cong-SA\\cong-sa-27.png,cong-sa-27
85,\incong-cong-ha,2708,1,stimuli-ha-sa\\incong-cong-HA\\incong-ha-2.png,incong-ha-2
86,\incong-cong-ha,2092,1,stimuli-ha-sa\\incong-cong-HA\\cong-ha-3.png,cong-ha-3
87,\incong-cong-ha,1388,1,stimuli-ha-sa\\incong-cong-HA\\cong-ha-48.png,cong-ha-48
88,\incong-cong-sa,1353,1,stimuli-ha-sa\\incong-cong-SA\\incong-sa-51.png,incong-sa-51
89,\incong-cong-sa,3046,1,stimuli-ha-sa\\incong-cong-SA\\cong-sa-49.png,cong-sa-49
90,\incong-cong-ha,1543,1,stimuli-ha-sa\\incong-cong-HA\\incong-ha-28.png,incong-ha-28
91,\incong-cong-sa,1350,1,stimuli-ha-sa\\incong-cong-SA\\incong-sa-17.png,incong-sa-17
92,\incong-cong-ha,1289,1,stimuli-ha-sa\\incong-cong-HA\\cong-ha-26.png,cong-ha-26
93,\incong-cong-sa,2010,1,stimuli-ha-sa\\incong-cong-SA\\incong-sa-48.png,incong-sa-48
94,\incong-cong-sa,2264,1,stimuli-ha-sa\\incong-cong-SA\\cong-sa-45.png,cong-sa-45
95,\incong-cong-sa,1665,1,stimuli-ha-sa\\incong-cong-SA\\cong-sa-37.png,cong-sa-37
96,\incong-cong-ha,2680,1,stimuli-ha-sa\\incong-cong-HA\\incong-ha-36.png,incong-ha-36
97,\incong-cong-sa,1484,1,stimuli-ha-sa\\incong-cong-SA\\cong-sa-22.png,cong-sa-22
98,\incong-cong-ha,1572,1,stimuli-ha-sa\\incong-cong-HA\\cong-ha-29.png,cong-ha-29
99,\incong-cong-ha,1663,1,stimuli-ha-sa\\incong-cong-HA\\cong-ha-7.png,cong-ha-7
100,\incong-cong-sa,1366,1,stimuli-ha-sa\\incong-cong-SA\\incong-sa-47.png,incong-sa-47
101,\incong-cong-sa,1343,1,stimuli-ha-sa\\incong-cong-SA\\cong-sa-6.png,cong-sa-6
102,\incong-cong-ha,1720,1,stimuli-ha-sa\\incong-cong-HA\\incong-ha-37.png,incong-ha-37
103,\incong-cong-ha,1446,1,stimuli-ha-sa\\incong-cong-HA\\cong-ha-23.png,cong-ha-23
104,\incong-cong-ha,1400,1,stimuli-ha-sa\\incong-cong-HA\\incong-ha-25.png,incong-ha-25
105,\incong-cong-sa,1272,1,stimuli-ha-sa\\incong-cong-SA\\incong-sa-24.png,incong-sa-24
106,\incong-cong-ha,1370,1,stimuli-ha-sa\\incong-cong-HA\\incong-ha-34.png,incong-ha-34
107,\incong-cong-ha,1735,1,stimuli-ha-sa\\incong-cong-HA\\cong-ha-45.png,cong-ha-45
